<Bundle xmlns="http://hl7.org/fhir">
   <id value="1-2-ImmunizationCertificate"></id>
   <meta>
      <lastUpdated value="2021-05-19T10:51:45.993+02:00"></lastUpdated>
      <profile value="http://fhir.ch/ig/ch-vacd/StructureDefinition/ch-vacd-document-immunization-certificate"></profile>
   </meta>
   <identifier>
      <system value="urn:ietf:rfc:3986"></system>
      <value value="urn:uuid:c0dc5cd2-045b-4e81-84bd-e48fe13595eb"></value>
   </identifier>
   <type value="document"></type>
   <timestamp value="2021-05-19T10:51:45.992+02:00"></timestamp>
   <entry>
      <fullUrl value="http://test.fhir.ch/r4/Composition/2-2-ImmunizationCertificateComposition"></fullUrl>
      <resource>
         <Composition xmlns="http://hl7.org/fhir">
            <id value="2-2-ImmunizationCertificateComposition"></id>
            <meta>
               <profile value="http://fhir.ch/ig/ch-vacd/StructureDefinition/ch-vacd-composition-immunization-certificate"></profile>
            </meta>
            <language value="en-US"></language>
            <text>
               <status value="generated"></status>
               <div xmlns="http://www.w3.org/1999/xhtml" xml:lang="en-US" lang="en-US">This is the composition for all immunizations.</div>
            </text>
            <extension id="versionNumber" url="http://fhir.ch/ig/ch-core/StructureDefinition/ch-ext-epr-versionnumber">
               <valueUnsignedInt value="1"></valueUnsignedInt>
            </extension>
            <identifier>
               <system value="urn:ietf:rfc:3986"></system>
               <value value="urn:uuid:b787af75-8167-446b-af0c-ac6543c375db"></value>
            </identifier>
            <status value="final"></status>
            <type>
               <coding>
                  <system value="http://snomed.info/sct"></system>
                  <code value="41000179103"></code>
                  <display value="Immunization record"></display>
               </coding>
            </type>
            <subject>
               <reference value="Patient/3-1-Patient"></reference>
            </subject>
            <date value="2021-05-19T10:51:45+02:00"></date>
            <author>
               <reference value="PractitionerRole/6-1-PractitionerRole"></reference>
            </author>
            <title value="Verabreichte Impfungen"></title>
            <confidentiality value="N">
               <extension url="http://fhir.ch/ig/ch-core/StructureDefinition/ch-ext-epr-confidentialitycode">
                  <valueCodeableConcept>
                     <coding>
                        <system value="http://snomed.info/sct"></system>
                        <code value="17621005"></code>
                        <display value="Normal (qualifier value)"></display>
                     </coding>
                  </valueCodeableConcept>
               </extension>
            </confidentiality>
            <custodian>
               <reference value="Organization/5-1-Organization"></reference>
            </custodian>
            <section id="administration">
               <title value="Liste der verabreichten Impfungen"></title>
               <code>
                  <coding>
                     <system value="http://loinc.org"></system>
                     <code value="11369-6"></code>
                     <display value="Hx of Immunization"></display>
                  </coding>
               </code>
               <text>
                  <status value="generated"></status>
                  <div xmlns="http://www.w3.org/1999/xhtml" xml:lang="en-US" lang="en-US">This is the section containing all immunization entries.</div>
               </text>
               <entry>
                  <reference value="Immunization/7-2-Immunization"></reference>
               </entry>
               <entry>
                  <reference value="Immunization/7-3-Immunization"></reference>
               </entry>
               <entry>
                  <reference value="Immunization/7-4-Immunization"></reference>
               </entry>
               <entry>
                  <reference value="Immunization/7-5-Immunization"></reference>
               </entry>
               <entry>
                  <reference value="Immunization/7-6-Immunization"></reference>
               </entry>
            </section>
            <section id="annotation">
               <title value="Kommentar"></title>
               <code>
                  <coding>
                     <system value="http://loinc.org"></system>
                     <code value="48767-8"></code>
                     <display value="Annotation comment [Interpretation] Narrative"></display>
                  </coding>
               </code>
               <text>
                  <status value="generated"></status>
                  <div xmlns="http://www.w3.org/1999/xhtml" xml:lang="en-US">This is the section containing all immunization entries.</div>
               </text>
            </section>
         </Composition>
      </resource>
   </entry>
   <entry>
      <fullUrl value="http://test.fhir.ch/r4/Patient/3-1-Patient"></fullUrl>
      <resource>
         <Patient xmlns="http://hl7.org/fhir">
            <id value="3-1-Patient"></id>
            <meta>
               <profile value="http://fhir.ch/ig/ch-core/StructureDefinition/ch-core-patient-epr"></profile>
            </meta>
            <text>
               <status value="generated"></status>
               <div xmlns="http://www.w3.org/1999/xhtml">
                  <div class="hapiHeaderText">Monika 
                     <b>WEGMUELLER </b>
                  </div>
                  <table class="hapiPropertyTable">
                     <tbody>
                        <tr>
                           <td>Identifier</td>
                           <td>123.71.332.115</td>
                        </tr>
                        <tr>
                           <td>Address</td>
                           <td>
                              <span>Leidensweg 10 </span>
                              <br></br>
                              <span>Specimendorf </span>
                              <span>CH </span>
                           </td>
                        </tr>
                        <tr>
                           <td>Date of birth</td>
                           <td>
                              <span>10 February 1967</span>
                           </td>
                        </tr>
                     </tbody>
                  </table>
               </div>
            </text>
            <identifier>
               <system value="urn:oid:2.16.756.5.31"></system>
               <value value="123.71.332.115"></value>
            </identifier>
            <identifier>
               <system value="urn:oid:2.16.756.5.30.1.123.100.1.1.1"></system>
               <value value="8077560000000000000000"></value>
            </identifier>
            <name>
               <family value="Wegmueller"></family>
               <given value="Monika"></given>
            </name>
            <telecom>
               <system value="phone"></system>
               <value value="tel:+41.32.685.12.34"></value>
               <use value="home"></use>
            </telecom>
            <gender value="female"></gender>
            <birthDate value="1967-02-10"></birthDate>
            <address>
               <type value="both"></type>
               <line value="Leidensweg 10"></line>
               <city value="Specimendorf"></city>
               <postalCode value="9876"></postalCode>
               <country value="CH"></country>
            </address>
         </Patient>
      </resource>
   </entry>
   <entry>
      <fullUrl value="http://test.fhir.ch/r4/Practitioner/4-1-Practitioner"></fullUrl>
      <resource>
         <Practitioner xmlns="http://hl7.org/fhir">
            <id value="4-1-Practitioner"></id>
            <meta>
               <profile value="http://fhir.ch/ig/ch-core/StructureDefinition/ch-core-practitioner-epr"></profile>
            </meta>
            <identifier>
               <system value="urn:oid:2.51.1.3"></system>
               <value value="7608888888888"></value>
            </identifier>
            <active value="true"></active>
            <name>
               <family value="Bereit"></family>
               <given value="Allzeit"></given>
               <prefix value="Dr. med."></prefix>
            </name>
            <telecom>
               <system value="phone"></system>
               <value value="tel:+41.32.234.55.66"></value>
               <use value="work"></use>
            </telecom>
            <telecom>
               <system value="fax"></system>
               <value value="fax:+41.32.234.55.67"></value>
               <use value="work"></use>
            </telecom>
            <telecom>
               <system value="email"></system>
               <value value="mailto:bereit@gruppenpraxis.ch"></value>
               <use value="work"></use>
            </telecom>
            <telecom>
               <system value="url"></system>
               <value value="http://www.gruppenpraxis.ch"></value>
               <use value="work"></use>
            </telecom>
            <address>
               <type value="physical"></type>
               <line value="Doktorgasse 2"></line>
               <city value="Musterhausen"></city>
               <postalCode value="8888"></postalCode>
               <country value="CH"></country>
            </address>
         </Practitioner>
      </resource>
   </entry>
   <entry>
      <fullUrl value="http://test.fhir.ch/r4/Organization/5-1-Organization"></fullUrl>
      <resource>
         <Organization xmlns="http://hl7.org/fhir">
            <id value="5-1-Organization"></id>
            <meta>
               <profile value="http://fhir.ch/ig/ch-core/StructureDefinition/ch-core-organization-epr"></profile>
            </meta>
            <identifier>
               <system value="urn:oid:2.51.1.3"></system>
               <value value="7608888888888"></value>
            </identifier>
            <name value="Gruppenpraxis CH"></name>
            <telecom>
               <system value="phone"></system>
               <value value="tel:+41.32.234.55.66"></value>
               <use value="work"></use>
            </telecom>
            <telecom>
               <system value="fax"></system>
               <value value="fax:+41.32.234.55.67"></value>
               <use value="work"></use>
            </telecom>
            <telecom>
               <system value="email"></system>
               <value value="mailto:bereit@gruppenpraxis.ch"></value>
               <use value="work"></use>
            </telecom>
            <telecom>
               <system value="url"></system>
               <value value="http://www.gruppenpraxis.ch"></value>
               <use value="work"></use>
            </telecom>
            <address>
               <line value="Doktorgasse 2"></line>
               <city value="Musterhausen"></city>
               <state value="ZH"></state>
               <postalCode value="8888"></postalCode>
               <country value="CH"></country>
            </address>
         </Organization>
      </resource>
   </entry>
   <entry>
      <fullUrl value="http://test.fhir.ch/r4/PractitionerRole/6-1-PractitionerRole"></fullUrl>
      <resource>
         <PractitionerRole xmlns="http://hl7.org/fhir">
            <id value="6-1-PractitionerRole"></id>
            <meta>
               <profile value="http://fhir.ch/ig/ch-core/StructureDefinition/ch-core-practitionerrole-epr"></profile>
            </meta>
            <active value="true"></active>
            <practitioner>
               <reference value="Practitioner/4-1-Practitioner"></reference>
            </practitioner>
            <organization>
               <reference value="Organization/5-1-Organization"></reference>
            </organization>
         </PractitionerRole>
      </resource>
   </entry>
   <entry>
      <fullUrl value="http://test.fhir.ch/r4/PractitionerRole/6-2-PractitionerRole"></fullUrl>
      <resource>
         <PractitionerRole xmlns="http://hl7.org/fhir">
            <id value="6-2-PractitionerRole"></id>
            <meta>
               <profile value="http://fhir.ch/ig/ch-core/StructureDefinition/ch-core-practitionerrole"></profile>
            </meta>
            <active value="true"></active>
            <practitioner>
               <reference value="Practitioner/4-2-Practitioner"></reference>
            </practitioner>
            <organization>
               <reference value="Organization/5-2-Organization"></reference>
            </organization>
         </PractitionerRole>
      </resource>
   </entry>
   <entry>
      <fullUrl value="http://test.fhir.ch/r4/Practitioner/4-2-Practitioner"></fullUrl>
      <resource>
         <Practitioner xmlns="http://hl7.org/fhir">
            <id value="4-2-Practitioner"></id>
            <meta>
               <profile value="http://fhir.ch/ig/ch-core/StructureDefinition/ch-core-practitioner"></profile>
            </meta>
            <identifier>
               <system value="urn:oid:2.51.1.3"></system>
               <value value="2000000000030"></value>
            </identifier>
            <active value="true"></active>
            <name>
               <family value="Demo"></family>
               <given value="Detlef"></given>
            </name>
            <address id="12-6-Address">
               <line value="Hilfgasse 7"></line>
               <city value="Hilferswil"></city>
               <state value="BE"></state>
               <postalCode value="3456"></postalCode>
               <country value="CH"></country>
            </address>
         </Practitioner>
      </resource>
   </entry>
   <entry>
      <fullUrl value="http://test.fhir.ch/r4/Organization/5-2-Organization"></fullUrl>
      <resource>
         <Organization xmlns="http://hl7.org/fhir">
            <id value="5-2-Organization"></id>
            <meta>
               <profile value="http://fhir.ch/ig/ch-core/StructureDefinition/ch-core-organization"></profile>
            </meta>
            <identifier>
               <system value="urn:oid:2.51.1.3"></system>
               <value value="2010000000041"></value>
            </identifier>
            <name value="Praxis Demo"></name>
            <address id="12-6-Address">
               <line value="Hilfgasse 7"></line>
               <city value="Hilferswil"></city>
               <state value="BE"></state>
               <postalCode value="3456"></postalCode>
               <country value="CH"></country>
            </address>
         </Organization>
      </resource>
   </entry>
   <entry>
      <fullUrl value="http://test.fhir.ch/r4/PractitionerRole/6-3-PractitionerRole"></fullUrl>
      <resource>
         <PractitionerRole xmlns="http://hl7.org/fhir">
            <id value="6-3-PractitionerRole"></id>
            <meta>
               <profile value="http://fhir.ch/ig/ch-core/StructureDefinition/ch-core-practitionerrole"></profile>
            </meta>
            <active value="true"></active>
            <practitioner>
               <reference value="Practitioner/4-3-Practitioner"></reference>
            </practitioner>
            <organization>
               <reference value="Organization/5-3-Organization"></reference>
            </organization>
         </PractitionerRole>
      </resource>
   </entry>
   <entry>
      <fullUrl value="http://test.fhir.ch/r4/Practitioner/4-3-Practitioner"></fullUrl>
      <resource>
         <Practitioner xmlns="http://hl7.org/fhir">
            <id value="4-3-Practitioner"></id>
            <meta>
               <profile value="http://fhir.ch/ig/ch-core/StructureDefinition/ch-core-practitioner"></profile>
            </meta>
            <identifier>
               <system value="urn:oid:2.51.1.3"></system>
               <value value="2000000000031"></value>
            </identifier>
            <active value="true"></active>
            <name>
               <family value="Muster"></family>
               <given value="Max"></given>
            </name>
            <address>
               <line value="Mustergasse 99"></line>
               <city value="Beispielen"></city>
               <state value="SG"></state>
               <postalCode value="9876"></postalCode>
               <country value="CH"></country>
            </address>
         </Practitioner>
      </resource>
   </entry>
   <entry>
      <fullUrl value="http://test.fhir.ch/r4/Organization/5-3-Organization"></fullUrl>
      <resource>
         <Organization xmlns="http://hl7.org/fhir">
            <id value="5-3-Organization"></id>
            <meta>
               <profile value="http://fhir.ch/ig/ch-core/StructureDefinition/ch-core-organization"></profile>
            </meta>
            <identifier>
               <system value="urn:oid:2.51.1.3"></system>
               <value value="2010000000051"></value>
            </identifier>
            <name value="Praxis Muster"></name>
            <address>
               <line value="Mustergasse 99"></line>
               <city value="Beispielen"></city>
               <state value="SG"></state>
               <postalCode value="9876"></postalCode>
               <country value="CH"></country>
            </address>
         </Organization>
      </resource>
   </entry>
   <entry>
      <fullUrl value="http://test.fhir.ch/r4/Immunization/7-2-Immunization"></fullUrl>
      <resource>
         <Immunization xmlns="http://hl7.org/fhir">
            <id value="7-2-Immunization"></id>
            <meta>
               <profile value="http://fhir.ch/ig/ch-vacd/StructureDefinition/ch-vacd-immunization"></profile>
            </meta>
            <identifier>
               <system value="urn:oid:2.16.756.5.30.1.147.1.3.1"></system>
               <value value="12345"></value>
            </identifier>
            <status value="completed"></status>
            <vaccineCode>
               <coding>
                  <system value="http://swissmedic.ch/ns/authorizationnumber/vs"></system>
                  <code value="637"></code>
                  <display value="Boostrix"></display>
               </coding>
            </vaccineCode>
            <patient>
               <reference value="Patient/3-1-Patient"></reference>
            </patient>
            <occurrenceDateTime value="2013-09-15T10:51:45+02:00"></occurrenceDateTime>
            <recorded value="2013-09-15T10:51:45+02:00"></recorded>
            <lotNumber value="12345"></lotNumber>
            <performer>
               <actor>
                  <reference value="PractitionerRole/6-2-PractitionerRole"></reference>
               </actor>
            </performer>
            <protocolApplied>
               <targetDisease>
                  <coding>
                     <system value="http://snomed.info/sct"></system>
                     <code value="76668005"></code>
                     <display value="Diphtheria immunization"></display>
                  </coding>
               </targetDisease>
               <targetDisease>
                  <coding>
                     <system value="http://snomed.info/sct"></system>
                     <code value="127786006"></code>
                     <display value="Tetanus vaccination"></display>
                  </coding>
               </targetDisease>
               <targetDisease>
                  <coding>
                     <system value="http://snomed.info/sct"></system>
                     <code value="39343008"></code>
                     <display value="Pertussis vaccination"></display>
                  </coding>
               </targetDisease>
               <doseNumberPositiveInt value="1"></doseNumberPositiveInt>
            </protocolApplied>
         </Immunization>
      </resource>
   </entry>
   <entry>
      <fullUrl value="http://test.fhir.ch/r4/Immunization/7-3-Immunization"></fullUrl>
      <resource>
         <Immunization xmlns="http://hl7.org/fhir">
            <id value="7-3-Immunization"></id>
            <meta>
               <profile value="http://fhir.ch/ig/ch-vacd/StructureDefinition/ch-vacd-immunization"></profile>
            </meta>
            <identifier>
               <system value="urn:oid:2.16.756.5.30.1.147.1.3.1"></system>
               <value value="23456"></value>
            </identifier>
            <status value="completed"></status>
            <vaccineCode>
               <coding>
                  <system value="http://swissmedic.ch/ns/authorizationnumber/vs"></system>
                  <code value="637"></code>
                  <display value="Boostrix"></display>
               </coding>
            </vaccineCode>
            <patient>
               <reference value="Patient/3-1-Patient"></reference>
            </patient>
            <occurrenceDateTime value="2014-08-12T10:51:45+02:00"></occurrenceDateTime>
            <recorded value="2014-08-12T10:51:45+02:00"></recorded>
            <lotNumber value="12345"></lotNumber>
            <performer>
               <actor>
                  <reference value="PractitionerRole/6-2-PractitionerRole"></reference>
               </actor>
            </performer>
            <protocolApplied>
               <targetDisease>
                  <coding>
                     <system value="http://snomed.info/sct"></system>
                     <code value="76668005"></code>
                     <display value="Diphtheria immunization"></display>
                  </coding>
               </targetDisease>
               <targetDisease>
                  <coding>
                     <system value="http://snomed.info/sct"></system>
                     <code value="127786006"></code>
                     <display value="Tetanus vaccination"></display>
                  </coding>
               </targetDisease>
               <targetDisease>
                  <coding>
                     <system value="http://snomed.info/sct"></system>
                     <code value="39343008"></code>
                     <display value="Pertussis vaccination"></display>
                  </coding>
               </targetDisease>
               <doseNumberPositiveInt value="1"></doseNumberPositiveInt>
            </protocolApplied>
         </Immunization>
      </resource>
   </entry>
   <entry>
      <fullUrl value="http://test.fhir.ch/r4/Immunization/7-4-Immunization"></fullUrl>
      <resource>
         <Immunization xmlns="http://hl7.org/fhir">
            <id value="7-4-Immunization"></id>
            <meta>
               <profile value="http://fhir.ch/ig/ch-vacd/StructureDefinition/ch-vacd-immunization"></profile>
            </meta>
            <identifier>
               <system value="urn:oid:2.16.756.5.30.1.147.1.3.1"></system>
               <value value="34567"></value>
            </identifier>
            <status value="completed"></status>
            <vaccineCode>
               <coding>
                  <system value="http://swissmedic.ch/ns/authorizationnumber/vs"></system>
                  <code value="637"></code>
                  <display value="Boostrix"></display>
               </coding>
            </vaccineCode>
            <patient>
               <reference value="Patient/3-1-Patient"></reference>
            </patient>
            <occurrenceDateTime value="2015-11-01T10:51:45+01:00"></occurrenceDateTime>
            <recorded value="2015-11-01T10:51:45+01:00"></recorded>
            <lotNumber value="12345"></lotNumber>
            <performer>
               <actor>
                  <reference value="PractitionerRole/6-2-PractitionerRole"></reference>
               </actor>
            </performer>
            <protocolApplied>
               <targetDisease>
                  <coding>
                     <system value="http://snomed.info/sct"></system>
                     <code value="76668005"></code>
                     <display value="Diphtheria immunization"></display>
                  </coding>
               </targetDisease>
               <targetDisease>
                  <coding>
                     <system value="http://snomed.info/sct"></system>
                     <code value="127786006"></code>
                     <display value="Tetanus vaccination"></display>
                  </coding>
               </targetDisease>
               <targetDisease>
                  <coding>
                     <system value="http://snomed.info/sct"></system>
                     <code value="39343008"></code>
                     <display value="Pertussis vaccination"></display>
                  </coding>
               </targetDisease>
               <doseNumberPositiveInt value="1"></doseNumberPositiveInt>
            </protocolApplied>
         </Immunization>
      </resource>
   </entry>
   <entry>
      <fullUrl value="http://test.fhir.ch/r4/Immunization/7-5-Immunization"></fullUrl>
      <resource>
         <Immunization xmlns="http://hl7.org/fhir">
            <id value="7-5-Immunization"></id>
            <meta>
               <profile value="http://fhir.ch/ig/ch-vacd/StructureDefinition/ch-vacd-immunization"></profile>
            </meta>
            <identifier>
               <system value="urn:oid:2.16.756.5.30.1.147.1.3.1"></system>
               <value value="45678"></value>
            </identifier>
            <status value="completed"></status>
            <vaccineCode>
               <coding>
                  <system value="http://swissmedic.ch/ns/authorizationnumber/vs"></system>
                  <code value="268"></code>
                  <display value="MMR-II"></display>
               </coding>
            </vaccineCode>
            <patient>
               <reference value="Patient/3-1-Patient"></reference>
            </patient>
            <occurrenceDateTime value="2016-03-05T10:51:45+01:00"></occurrenceDateTime>
            <recorded value="2016-03-05T10:51:45+01:00"></recorded>
            <lotNumber value="12345"></lotNumber>
            <performer>
               <actor>
                  <reference value="PractitionerRole/6-3-PractitionerRole"></reference>
               </actor>
            </performer>
            <protocolApplied>
               <targetDisease>
                  <coding>
                     <system value="http://snomed.info/sct"></system>
                     <code value="47435007"></code>
                     <display value="Measles vaccination"></display>
                  </coding>
               </targetDisease>
               <targetDisease>
                  <coding>
                     <system value="http://snomed.info/sct"></system>
                     <code value="50583002"></code>
                     <display value="Mumps vaccination"></display>
                  </coding>
               </targetDisease>
               <targetDisease>
                  <coding>
                     <system value="http://snomed.info/sct"></system>
                     <code value="82314000"></code>
                     <display value="Rubella vaccination"></display>
                  </coding>
               </targetDisease>
               <doseNumberPositiveInt value="1"></doseNumberPositiveInt>
            </protocolApplied>
         </Immunization>
      </resource>
   </entry>
   <entry>
      <fullUrl value="http://test.fhir.ch/r4/Immunization/7-6-Immunization"></fullUrl>
      <resource>
         <Immunization xmlns="http://hl7.org/fhir">
            <id value="7-6-Immunization"></id>
            <meta>
               <profile value="http://fhir.ch/ig/ch-vacd/StructureDefinition/ch-vacd-immunization"></profile>
            </meta>
            <identifier>
               <system value="urn:oid:2.16.756.5.30.1.147.1.3.1"></system>
               <value value="12312"></value>
            </identifier>
            <status value="completed"></status>
            <statusReason>
               <coding>
                  <system value="http://terminology.hl7.org/CodeSystem/v3-ActReason"></system>
                  <code value="PATOBJ"></code>
                  <display value="Patient objection"></display>
               </coding>
            </statusReason>
            <vaccineCode>
               <coding>
                  <system value="http://swissmedic.ch/ns/authorizationnumber/vs"></system>
                  <code value="545"></code>
                  <display value="HBVAXPRO 40"></display>
               </coding>
            </vaccineCode>
            <patient>
               <reference value="Patient/3-1-Patient"></reference>
            </patient>
            <occurrenceDateTime value="2012-02-26T10:51:45+01:00"></occurrenceDateTime>
            <recorded value="2012-02-26T10:51:45+01:00"></recorded>
            <lotNumber value="12345"></lotNumber>
            <performer>
               <actor>
                  <reference value="PractitionerRole/6-3-PractitionerRole"></reference>
               </actor>
            </performer>
            <protocolApplied>
               <targetDisease>
                  <coding>
                     <system value="http://snomed.info/sct"></system>
                     <code value="16584000"></code>
                     <display value="Hepatitis B vaccination"></display>
                  </coding>
               </targetDisease>
               <doseNumberPositiveInt value="1"></doseNumberPositiveInt>
            </protocolApplied>
         </Immunization>
      </resource>
   </entry>
</Bundle>