<Bundle xmlns="http://hl7.org/fhir">
   <id value="1-ImmunizationAdministration"></id>
   <meta>
      <lastUpdated value="2021-05-12T15:10:40.045+02:00"></lastUpdated>
      <profile value="http://fhir.ch/ig/ch-vacd/StructureDefinition/ch-vacd-document-immunization-administration"></profile>
   </meta>
   <identifier>
      <system value="urn:ietf:rfc:3986"></system>
      <value value="urn:uuid:545049cc-706a-4115-b7d7-0727b73421bf"></value>
   </identifier>
   <type value="document"></type>
   <timestamp value="2021-05-12T15:10:40.007+02:00"></timestamp>
   <entry>
      <fullUrl value="http://test.fhir.ch/r4/Composition/0277476e-0765-497e-9ee0-d099b890e967"></fullUrl>
      <resource>
         <Composition xmlns="http://hl7.org/fhir">
            <id value="0277476e-0765-497e-9ee0-d099b890e967"></id>
            <meta>
               <profile value="http://fhir.ch/ig/ch-vacd/StructureDefinition/ch-vacd-composition-immunization-administration"></profile>
            </meta>
            <language value="en-US"></language>
            <text>
               <status value="generated"></status>
               <div xmlns="http://www.w3.org/1999/xhtml" xml:lang="en-US" lang="en-US">This is the composition for all immunizations.</div>
            </text>
            <extension id="versionNumber" url="http://fhir.ch/ig/ch-core/StructureDefinition/ch-ext-epr-versionnumber">
               <valueUnsignedInt value="1"></valueUnsignedInt>
            </extension>
            <identifier>
               <system value="urn:ietf:rfc:3986"></system>
               <value value="urn:uuid:43350f2d-050a-4f4a-8a1c-e085c7f310da"></value>
            </identifier>
            <status value="final"></status>
            <type>
               <coding>
                  <system value="http://snomed.info/sct"></system>
                  <code value="41000179103"></code>
                  <display value="Immunization record"></display>
               </coding>
            </type>
            <subject>
               <reference value="Patient/patientEpr"></reference>
            </subject>
            <date value="2021-05-12T15:10:40+02:00"></date>
            <author>
               <reference value="PractitionerRole/practitionerRoleEpr1"></reference>
            </author>
            <title value="Verabreichte Impfungen"></title>
            <confidentiality value="N">
               <extension url="http://fhir.ch/ig/ch-core/StructureDefinition/ch-ext-epr-confidentialitycode">
                  <valueCodeableConcept>
                     <coding>
                        <system value="http://snomed.info/sct"></system>
                        <code value="17621005"></code>
                        <display value="Normal (qualifier value)"></display>
                     </coding>
                  </valueCodeableConcept>
               </extension>
            </confidentiality>
            <custodian>
               <reference value="Organization/organizationEpr1"></reference>
            </custodian>
            <section id="administration">
               <title value="Liste der verabreichten Impfungen"></title>
               <code>
                  <coding>
                     <system value="http://loinc.org"></system>
                     <code value="11369-6"></code>
                     <display value="Hx of Immunization"></display>
                  </coding>
               </code>
               <text>
                  <status value="generated"></status>
                  <div xmlns="http://www.w3.org/1999/xhtml" xml:lang="en-US" lang="en-US">This is the section containing all immunization entries.</div>
               </text>
               <entry>
                  <reference value="Immunization/immunization1"></reference>
               </entry>
            </section>
            <section id="annotation">
               <title value="Kommentar"></title>
               <code>
                  <coding>
                     <system value="http://loinc.org"></system>
                     <code value="48767-8"></code>
                     <display value="Annotation comment [Interpretation] Narrative"></display>
                  </coding>
               </code>
               <text>
                  <status value="generated"></status>
                  <div xmlns="http://www.w3.org/1999/xhtml" xml:lang="en-US">This is the section containing all immunization entries.</div>
               </text>
            </section>
         </Composition>
      </resource>
   </entry>
   <entry>
      <fullUrl value="http://test.fhir.ch/r4/Patient/patientEpr"></fullUrl>
      <resource>
         <Patient xmlns="http://hl7.org/fhir">
            <id value="patientEpr"></id>
            <meta>
               <profile value="http://fhir.ch/ig/ch-core/StructureDefinition/ch-core-patient-epr"></profile>
            </meta>
            <text>
               <status value="generated"></status>
               <div xmlns="http://www.w3.org/1999/xhtml">
                  <div class="hapiHeaderText">Monika 
                     <b>WEGMUELLER </b>
                  </div>
                  <table class="hapiPropertyTable">
                     <tbody>
                        <tr>
                           <td>Identifier</td>
                           <td>123.71.332.115</td>
                        </tr>
                        <tr>
                           <td>Address</td>
                           <td>
                              <span>Leidensweg 10 </span>
                              <br></br>
                              <span>Specimendorf </span>
                              <span>CH </span>
                           </td>
                        </tr>
                        <tr>
                           <td>Date of birth</td>
                           <td>
                              <span>10 February 1967</span>
                           </td>
                        </tr>
                     </tbody>
                  </table>
               </div>
            </text>
            <identifier>
               <system value="urn:oid:2.16.756.5.31"></system>
               <value value="123.71.332.115"></value>
            </identifier>
            <identifier>
               <system value="urn:oid:2.16.756.5.30.1.123.100.1.1.1"></system>
               <value value="8077560000000000000000"></value>
            </identifier>
            <name>
               <family value="Wegmueller"></family>
               <given value="Monika"></given>
            </name>
            <telecom>
               <system value="phone"></system>
               <value value="tel:+41.32.685.12.34"></value>
               <use value="home"></use>
            </telecom>
            <gender value="female"></gender>
            <birthDate value="1967-02-10"></birthDate>
            <address>
               <type value="both"></type>
               <line value="Leidensweg 10"></line>
               <city value="Specimendorf"></city>
               <postalCode value="9876"></postalCode>
               <country value="CH"></country>
            </address>
         </Patient>
      </resource>
   </entry>
   <entry>
      <fullUrl value="http://test.fhir.ch/r4/Practitioner/practitionerEpr1"></fullUrl>
      <resource>
         <Practitioner xmlns="http://hl7.org/fhir">
            <id value="practitionerEpr1"></id>
            <meta>
               <profile value="http://fhir.ch/ig/ch-core/StructureDefinition/ch-core-practitioner-epr"></profile>
            </meta>
            <identifier>
               <system value="urn:oid:2.51.1.3"></system>
               <value value="7608888888888"></value>
            </identifier>
            <active value="true"></active>
            <name>
               <family value="Bereit"></family>
               <given value="Allzeit"></given>
               <prefix value="Dr. med."></prefix>
            </name>
            <telecom>
               <system value="phone"></system>
               <value value="tel:+41.32.234.55.66"></value>
               <use value="work"></use>
            </telecom>
            <telecom>
               <system value="fax"></system>
               <value value="fax:+41.32.234.55.67"></value>
               <use value="work"></use>
            </telecom>
            <telecom>
               <system value="email"></system>
               <value value="mailto:bereit@gruppenpraxis.ch"></value>
               <use value="work"></use>
            </telecom>
            <telecom>
               <system value="url"></system>
               <value value="http://www.gruppenpraxis.ch"></value>
               <use value="work"></use>
            </telecom>
            <address>
               <type value="physical"></type>
               <line value="Doktorgasse 2"></line>
               <city value="Musterhausen"></city>
               <postalCode value="8888"></postalCode>
               <country value="CH"></country>
            </address>
         </Practitioner>
      </resource>
   </entry>
   <entry>
      <fullUrl value="http://test.fhir.ch/r4/Organization/organizationEpr1"></fullUrl>
      <resource>
         <Organization xmlns="http://hl7.org/fhir">
            <id value="organizationEpr1"></id>
            <meta>
               <profile value="http://fhir.ch/ig/ch-core/StructureDefinition/ch-core-organization-epr"></profile>
            </meta>
            <identifier>
               <system value="urn:oid:2.51.1.3"></system>
               <value value="7608888888888"></value>
            </identifier>
            <name value="Gruppenpraxis CH"></name>
            <telecom>
               <system value="phone"></system>
               <value value="tel:+41.32.234.55.66"></value>
               <use value="work"></use>
            </telecom>
            <telecom>
               <system value="fax"></system>
               <value value="fax:+41.32.234.55.67"></value>
               <use value="work"></use>
            </telecom>
            <telecom>
               <system value="email"></system>
               <value value="mailto:bereit@gruppenpraxis.ch"></value>
               <use value="work"></use>
            </telecom>
            <telecom>
               <system value="url"></system>
               <value value="http://www.gruppenpraxis.ch"></value>
               <use value="work"></use>
            </telecom>
            <address>
               <line value="Doktorgasse 2"></line>
               <city value="Musterhausen"></city>
               <state value="ZH"></state>
               <postalCode value="8888"></postalCode>
               <country value="CH"></country>
            </address>
         </Organization>
      </resource>
   </entry>
   <entry>
      <fullUrl value="http://test.fhir.ch/r4/PractitionerRole/practitionerRoleEpr1"></fullUrl>
      <resource>
         <PractitionerRole xmlns="http://hl7.org/fhir">
            <id value="practitionerRoleEpr1"></id>
            <meta>
               <profile value="http://fhir.ch/ig/ch-core/StructureDefinition/ch-core-practitionerrole-epr"></profile>
            </meta>
            <active value="true"></active>
            <practitioner>
               <reference value="Practitioner/practitionerEpr1"></reference>
            </practitioner>
            <organization>
               <reference value="Organization/organizationEpr1"></reference>
            </organization>
         </PractitionerRole>
      </resource>
   </entry>
   <entry>
      <fullUrl value="http://test.fhir.ch/r4/Immunization/immunization1"></fullUrl>
      <resource>
         <Immunization xmlns="http://hl7.org/fhir">
            <id value="immunization1"></id>
            <meta>
               <profile value="http://fhir.ch/ig/ch-vacd/StructureDefinition/ch-vacd-immunization"></profile>
            </meta>
            <identifier>
               <system value="urn:oid:2.16.756.5.30.1.147.1.3.1"></system>
               <value value="1829774"></value>
            </identifier>
            <status value="completed"></status>
            <vaccineCode>
               <coding>
                  <system value="http://swissmedic.ch/ns/authorizationnumber/vs"></system>
                  <code value="637"></code>
                  <display value="Boostrix"></display>
               </coding>
            </vaccineCode>
            <patient>
               <reference value="Patient/patientEpr"></reference>
            </patient>
            <occurrenceDateTime value="2017-09-15T15:10:40+02:00"></occurrenceDateTime>
            <recorded value="2017-09-15T15:10:40+02:00"></recorded>
            <lotNumber value="12345"></lotNumber>
            <performer>
               <actor>
                  <reference value="PractitionerRole/practitionerRoleEpr1"></reference>
               </actor>
            </performer>
            <protocolApplied>
               <targetDisease>
                  <coding>
                     <system value="http://snomed.info/sct"></system>
                     <code value="76668005"></code>
                     <display value="Diphtheria immunization"></display>
                  </coding>
               </targetDisease>
               <targetDisease>
                  <coding>
                     <system value="http://snomed.info/sct"></system>
                     <code value="127786006"></code>
                     <display value="Tetanus vaccination"></display>
                  </coding>
               </targetDisease>
               <targetDisease>
                  <coding>
                     <system value="http://snomed.info/sct"></system>
                     <code value="39343008"></code>
                     <display value="Pertussis vaccination"></display>
                  </coding>
               </targetDisease>
               <doseNumberPositiveInt value="1"></doseNumberPositiveInt>
            </protocolApplied>
         </Immunization>
      </resource>
   </entry>
</Bundle>