<Bundle xmlns="http://hl7.org/fhir">
   <id value="3-VaccinationRecord"></id>
   <meta>
      <lastUpdated value="2021-01-29T23:37:36.554+01:00"></lastUpdated>
      <profile value="http://fhir.ch/ig/ch-vacd/StructureDefinition/ch-vacd-document-vaccination-record"></profile>
   </meta>
   <identifier>
      <system value="urn:ietf:rfc:3986"></system>
      <value value="urn:uuid:7b0a39c9-5cfa-4936-90fa-f0870b2f3ddc"></value>
   </identifier>
   <type value="document"></type>
   <timestamp value="2021-01-29T23:37:36.534+01:00"></timestamp>
   <entry>
      <fullUrl value="http://test.fhir.ch/r4/Composition/ch-vacd-document-vaccination-record"></fullUrl>
      <resource>
         <Composition xmlns="http://hl7.org/fhir">
            <id value="ch-vacd-document-vaccination-record"></id>
            <meta>
               <profile value="http://fhir.ch/ig/ch-vacd/StructureDefinition/ch-vacd-composition-vaccination-record"></profile>
            </meta>
            <language value="en-US"></language>
            <text>
               <status value="generated"></status>
               <div xmlns="http://www.w3.org/1999/xhtml" xml:lang="en-US">This is the composition vaccination record.</div>
            </text>
            <identifier>
               <system value="urn:oid:2.16.756.5.30.1.1.1.1"></system>
               <value value="928da3e0-8f62-4ab3-88e5-abc7e2826587"></value>
            </identifier>
            <status value="final"></status>
            <type>
               <coding>
                  <system value="http://snomed.info/sct"></system>
                  <code value="41000179103"></code>
                  <display value="Immunization record"></display>
               </coding>
            </type>
            <subject>
               <reference value="Patient/patient1"></reference>
            </subject>
            <date value="2021-01-29T23:37:36+01:00"></date>
            <author>
               <reference value="Practitioner/practitioner1"></reference>
            </author>
            <title value="Vaccination Record"></title>
            <custodian>
               <reference value="Organization/organization1"></reference>
            </custodian>
            <section id="administration">
               <title value="Liste der verabreichten Impfungen"></title>
               <text>
                  <status value="generated"></status>
                  <div xmlns="http://www.w3.org/1999/xhtml" xml:lang="en-US">This is the section containing all immunization entries.</div>
               </text>
               <entry>
                  <reference value="Immunization/immunization1"></reference>
               </entry>
               <entry>
                  <reference value="Immunization/immunization2"></reference>
               </entry>
               <entry>
                  <reference value="Immunization/immunization3"></reference>
               </entry>
               <entry>
                  <reference value="Immunization/immunization4"></reference>
               </entry>
            </section>
            <section id="sectionMedicalProblems1">
               <title value="MedicalProblems"></title>
               <text>
                  <status value="generated"></status>
                  <div xmlns="http://www.w3.org/1999/xhtml" xml:lang="en-US">This is the section containing the medical problem entries.</div>
               </text>
            </section>
            <section id="sectionIlnessesUndergondeForImmunization1">
               <title value="Undergone illnesses for immunization"></title>
               <text>
                  <status value="generated"></status>
                  <div xmlns="http://www.w3.org/1999/xhtml" xml:lang="en-US">This is the section containing the undergone illnesses for immunization entries.</div>
               </text>
            </section>
            <section id="allergies">
               <title value="Allergies"></title>
               <text>
                  <status value="generated"></status>
                  <div xmlns="http://www.w3.org/1999/xhtml" xml:lang="en-US">This is the section containing the allergy entries.</div>
               </text>
               <entry>
                  <reference value="Observation/allergyObservation1"></reference>
               </entry>
               <entry>
                  <reference value="Observation/allergyObservation2"></reference>
               </entry>
            </section>
            <section id="sectionLab1">
               <title value="Lab"></title>
               <text>
                  <status value="generated"></status>
                  <div xmlns="http://www.w3.org/1999/xhtml" xml:lang="en-US">This is the section containing the lab entries.</div>
               </text>
            </section>
            <section id="pregnancy">
               <title value="Pregnancy"></title>
               <text>
                  <status value="generated"></status>
                  <div xmlns="http://www.w3.org/1999/xhtml" xml:lang="en-US">This is the section containing the pregnancy status entry.</div>
               </text>
               <entry>
                  <reference value="Observation/pregnancyObservation1"></reference>
               </entry>
            </section>
            <section id="sectionImmunizationRecomendations1">
               <title value="Impf Empfehlungen"></title>
               <text>
                  <status value="generated"></status>
                  <div xmlns="http://www.w3.org/1999/xhtml" xml:lang="en-US">This is the section containing all immunization recommendations entries.</div>
               </text>
            </section>
            <section id="annotation">
               <title value="Kommentar"></title>
               <text>
                  <status value="generated"></status>
                  <div xmlns="http://www.w3.org/1999/xhtml" xml:lang="en-US">This is the section containing all immunization entries.</div>
               </text>
            </section>
         </Composition>
      </resource>
   </entry>
   <entry>
      <fullUrl value="http://test.fhir.ch/r4/Patient/patient1"></fullUrl>
      <resource>
         <Patient xmlns="http://hl7.org/fhir">
            <id value="patient1"></id>
            <text>
               <status value="generated"></status>
               <div xmlns="http://www.w3.org/1999/xhtml">
                  <div class="hapiHeaderText">Monika 
                     <b>WEGMUELLER </b>
                  </div>
                  <table class="hapiPropertyTable">
                     <tbody>
                        <tr>
                           <td>Identifier</td>
                           <td>1477284956984000</td>
                        </tr>
                        <tr>
                           <td>Address</td>
                           <td>
                              <span>Wiesenstr. 12 </span>
                              <br></br>
                              <span>Zürich </span>
                              <span>CH </span>
                           </td>
                        </tr>
                        <tr>
                           <td>Date of birth</td>
                           <td>
                              <span>15 June 1943</span>
                           </td>
                        </tr>
                     </tbody>
                  </table>
               </div>
            </text>
            <identifier>
               <system value="urn:oid:2.16.756.5.30.1.147.1.1"></system>
               <value value="1477284956984000"></value>
            </identifier>
            <name>
               <family value="Wegmueller"></family>
               <given value="Monika"></given>
            </name>
            <gender value="female"></gender>
            <birthDate value="1943-06-15"></birthDate>
            <address>
               <type value="both"></type>
               <line value="Wiesenstr. 12"></line>
               <city value="Zürich"></city>
               <postalCode value="8003"></postalCode>
               <country value="CH"></country>
            </address>
         </Patient>
      </resource>
   </entry>
   <entry>
      <fullUrl value="http://test.fhir.ch/r4/Practitioner/practitioner1"></fullUrl>
      <resource>
         <Practitioner xmlns="http://hl7.org/fhir">
            <id value="practitioner1"></id>
            <meta>
               <profile value="http://fhir.ch/ig/ch-core/StructureDefinition/ch-core-practitioner-epr"></profile>
            </meta>
            <identifier>
               <system value="urn:oid:2.51.1.3"></system>
               <value value="2000000000030"></value>
            </identifier>
            <active value="true"></active>
            <name>
               <family value="Demo"></family>
               <given value="Detlef"></given>
            </name>
         </Practitioner>
      </resource>
   </entry>
   <entry>
      <fullUrl value="http://test.fhir.ch/r4/Organization/organization1"></fullUrl>
      <resource>
         <Organization xmlns="http://hl7.org/fhir">
            <id value="organization1"></id>
            <meta>
               <profile value="http://fhir.ch/ig/ch-core/StructureDefinition/ch-core-organization-epr"></profile>
            </meta>
            <identifier>
               <system value="urn:oid:2.51.1.3"></system>
               <value value="2010000000030"></value>
            </identifier>
            <name value="Praxis Dr. Detlef Demo"></name>
            <address>
               <line value="Tobelweg 4"></line>
               <city value="Küsnacht ZH"></city>
               <state value="ZH"></state>
               <postalCode value="8700"></postalCode>
               <country value="CH"></country>
            </address>
         </Organization>
      </resource>
   </entry>
   <entry>
      <fullUrl value="http://test.fhir.ch/r4/PractitionerRole/practitionerRole1"></fullUrl>
      <resource>
         <PractitionerRole xmlns="http://hl7.org/fhir">
            <id value="practitionerRole1"></id>
            <active value="true"></active>
            <practitioner>
               <reference value="Practitioner/practitioner1"></reference>
            </practitioner>
            <organization>
               <reference value="Organization/organization1"></reference>
            </organization>
         </PractitionerRole>
      </resource>
   </entry>
   <entry>
      <fullUrl value="http://test.fhir.ch/r4/Practitioner/practitioner2"></fullUrl>
      <resource>
         <Practitioner xmlns="http://hl7.org/fhir">
            <id value="practitioner2"></id>
            <identifier>
               <system value="urn:oid:2.51.1.3"></system>
               <value value="2000000000031"></value>
            </identifier>
            <active value="true"></active>
            <name>
               <family value="Muster"></family>
               <given value="Max"></given>
            </name>
         </Practitioner>
      </resource>
   </entry>
   <entry>
      <fullUrl value="http://test.fhir.ch/r4/Immunization/immunization1"></fullUrl>
      <resource>
         <Immunization xmlns="http://hl7.org/fhir">
            <id value="immunization1"></id>
            <identifier>
               <system value="urn:oid:2.16.756.5.30.1.147.1.3.1"></system>
               <value value="12345"></value>
            </identifier>
            <status value="completed"></status>
            <vaccineCode>
               <coding>
                  <system value="http://swissmedic.ch/ns/authorizationnumber/vs"></system>
                  <code value="637"></code>
                  <display value="Boostrix"></display>
               </coding>
            </vaccineCode>
            <patient>
               <reference value="Patient/patient1"></reference>
            </patient>
            <occurrenceDateTime value="2013-09-15T23:37:36+02:00"></occurrenceDateTime>
            <recorded value="2013-09-15T23:37:36+02:00"></recorded>
            <lotNumber value="12345"></lotNumber>
            <performer>
               <actor>
                  <reference value="Practitioner/practitioner2"></reference>
               </actor>
            </performer>
            <reasonCode>
               <coding>
                  <system value="http://terminology.hl7.org/CodeSystem/v3-ActCode"></system>
                  <code value="IMMUNIZ"></code>
                  <display value="Immunization"></display>
               </coding>
            </reasonCode>
            <protocolApplied>
               <targetDisease>
                  <coding>
                     <system value="http://snomed.info/sct"></system>
                     <code value="76668005"></code>
                     <display value="Diphtheria immunization"></display>
                  </coding>
               </targetDisease>
               <targetDisease>
                  <coding>
                     <system value="http://snomed.info/sct"></system>
                     <code value="127786006"></code>
                     <display value="Tetanus vaccination"></display>
                  </coding>
               </targetDisease>
               <targetDisease>
                  <coding>
                     <system value="http://snomed.info/sct"></system>
                     <code value="39343008"></code>
                     <display value="Pertussis vaccination"></display>
                  </coding>
               </targetDisease>
               <doseNumberPositiveInt value="1"></doseNumberPositiveInt>
            </protocolApplied>
         </Immunization>
      </resource>
   </entry>
   <entry>
      <fullUrl value="http://test.fhir.ch/r4/Immunization/immunization2"></fullUrl>
      <resource>
         <Immunization xmlns="http://hl7.org/fhir">
            <id value="immunization2"></id>
            <identifier>
               <system value="urn:oid:2.16.756.5.30.1.147.1.3.1"></system>
               <value value="23456"></value>
            </identifier>
            <status value="completed"></status>
            <vaccineCode>
               <coding>
                  <system value="http://swissmedic.ch/ns/authorizationnumber/vs"></system>
                  <code value="637"></code>
                  <display value="Boostrix"></display>
               </coding>
            </vaccineCode>
            <patient>
               <reference value="Patient/patient1"></reference>
            </patient>
            <occurrenceDateTime value="2014-08-12T23:37:36+02:00"></occurrenceDateTime>
            <recorded value="2014-08-12T23:37:36+02:00"></recorded>
            <lotNumber value="12345"></lotNumber>
            <performer>
               <actor>
                  <reference value="Practitioner/practitioner2"></reference>
               </actor>
            </performer>
            <reasonCode>
               <coding>
                  <system value="http://terminology.hl7.org/CodeSystem/v3-ActCode"></system>
                  <code value="IMMUNIZ"></code>
                  <display value="Immunization"></display>
               </coding>
            </reasonCode>
            <protocolApplied>
               <targetDisease>
                  <coding>
                     <system value="http://snomed.info/sct"></system>
                     <code value="76668005"></code>
                     <display value="Diphtheria immunization"></display>
                  </coding>
               </targetDisease>
               <targetDisease>
                  <coding>
                     <system value="http://snomed.info/sct"></system>
                     <code value="127786006"></code>
                     <display value="Tetanus vaccination"></display>
                  </coding>
               </targetDisease>
               <targetDisease>
                  <coding>
                     <system value="http://snomed.info/sct"></system>
                     <code value="39343008"></code>
                     <display value="Pertussis vaccination"></display>
                  </coding>
               </targetDisease>
               <doseNumberPositiveInt value="1"></doseNumberPositiveInt>
            </protocolApplied>
         </Immunization>
      </resource>
   </entry>
   <entry>
      <fullUrl value="http://test.fhir.ch/r4/Immunization/immunization3"></fullUrl>
      <resource>
         <Immunization xmlns="http://hl7.org/fhir">
            <id value="immunization3"></id>
            <identifier>
               <system value="urn:oid:2.16.756.5.30.1.147.1.3.1"></system>
               <value value="34567"></value>
            </identifier>
            <status value="completed"></status>
            <vaccineCode>
               <coding>
                  <system value="http://swissmedic.ch/ns/authorizationnumber/vs"></system>
                  <code value="637"></code>
                  <display value="Boostrix"></display>
               </coding>
            </vaccineCode>
            <patient>
               <reference value="Patient/patient1"></reference>
            </patient>
            <occurrenceDateTime value="2015-11-01T23:37:36+01:00"></occurrenceDateTime>
            <recorded value="2015-11-01T23:37:36+01:00"></recorded>
            <lotNumber value="12345"></lotNumber>
            <performer>
               <actor>
                  <reference value="Practitioner/practitioner2"></reference>
               </actor>
            </performer>
            <reasonCode>
               <coding>
                  <system value="http://terminology.hl7.org/CodeSystem/v3-ActCode"></system>
                  <code value="IMMUNIZ"></code>
                  <display value="Immunization"></display>
               </coding>
            </reasonCode>
            <protocolApplied>
               <targetDisease>
                  <coding>
                     <system value="http://snomed.info/sct"></system>
                     <code value="76668005"></code>
                     <display value="Diphtheria immunization"></display>
                  </coding>
               </targetDisease>
               <targetDisease>
                  <coding>
                     <system value="http://snomed.info/sct"></system>
                     <code value="127786006"></code>
                     <display value="Tetanus vaccination"></display>
                  </coding>
               </targetDisease>
               <targetDisease>
                  <coding>
                     <system value="http://snomed.info/sct"></system>
                     <code value="39343008"></code>
                     <display value="Pertussis vaccination"></display>
                  </coding>
               </targetDisease>
               <doseNumberPositiveInt value="1"></doseNumberPositiveInt>
            </protocolApplied>
         </Immunization>
      </resource>
   </entry>
   <entry>
      <fullUrl value="http://test.fhir.ch/r4/Immunization/immunization4"></fullUrl>
      <resource>
         <Immunization xmlns="http://hl7.org/fhir">
            <id value="immunization4"></id>
            <identifier>
               <system value="urn:oid:2.16.756.5.30.1.147.1.3.1"></system>
               <value value="45678"></value>
            </identifier>
            <status value="completed"></status>
            <vaccineCode>
               <coding>
                  <system value="http://swissmedic.ch/ns/authorizationnumber/vs"></system>
                  <code value="268"></code>
                  <display value="MMR-II"></display>
               </coding>
            </vaccineCode>
            <patient>
               <reference value="Patient/patient1"></reference>
            </patient>
            <occurrenceDateTime value="2016-03-05T23:37:36+01:00"></occurrenceDateTime>
            <recorded value="2016-03-05T23:37:36+01:00"></recorded>
            <lotNumber value="12345"></lotNumber>
            <performer>
               <actor>
                  <reference value="Practitioner/practitioner1"></reference>
               </actor>
            </performer>
            <reasonCode>
               <coding>
                  <system value="http://terminology.hl7.org/CodeSystem/v3-ActCode"></system>
                  <code value="IMMUNIZ"></code>
                  <display value="Immunization"></display>
               </coding>
            </reasonCode>
            <protocolApplied>
               <targetDisease>
                  <coding>
                     <system value="http://snomed.info/sct"></system>
                     <code value="47435007"></code>
                     <display value="Measles vaccination"></display>
                  </coding>
               </targetDisease>
               <targetDisease>
                  <coding>
                     <system value="http://snomed.info/sct"></system>
                     <code value="50583002"></code>
                     <display value="Mumps vaccination"></display>
                  </coding>
               </targetDisease>
               <targetDisease>
                  <coding>
                     <system value="http://snomed.info/sct"></system>
                     <code value="82314000"></code>
                     <display value="Rubella vaccination"></display>
                  </coding>
               </targetDisease>
               <doseNumberPositiveInt value="1"></doseNumberPositiveInt>
            </protocolApplied>
         </Immunization>
      </resource>
   </entry>
   <entry>
      <fullUrl value="http://test.fhir.ch/r4/Observation/allergyObservation1"></fullUrl>
      <resource>
         <Observation xmlns="http://hl7.org/fhir">
            <id value="allergyObservation1"></id>
            <meta>
               <profile value="http://fhir.ch/ig/ch-vacd/StructureDefinition/ch-vacd-section-allergies"></profile>
            </meta>
            <status value="final"></status>
            <code>
               <coding>
                  <system value="http://snomed.info/sct"></system>
                  <code value="303300008"></code>
                  <display value="Egg protein (substance)"></display>
               </coding>
            </code>
            <valueBoolean value="true"></valueBoolean>
         </Observation>
      </resource>
   </entry>
   <entry>
      <fullUrl value="http://test.fhir.ch/r4/Observation/allergyObservation2"></fullUrl>
      <resource>
         <Observation xmlns="http://hl7.org/fhir">
            <id value="allergyObservation2"></id>
            <meta>
               <profile value="http://fhir.ch/ig/ch-vacd/StructureDefinition/ch-vacd-section-allergies"></profile>
            </meta>
            <status value="final"></status>
            <code>
               <coding>
                  <system value="http://snomed.info/sct"></system>
                  <code value="24079001"></code>
                  <display value="Atopic dermatitis (disorder)"></display>
               </coding>
            </code>
            <valueBoolean value="true"></valueBoolean>
         </Observation>
      </resource>
   </entry>
   <entry>
      <fullUrl value="http://test.fhir.ch/r4/Observation/pregnancyObservation1"></fullUrl>
      <resource>
         <Observation xmlns="http://hl7.org/fhir">
            <id value="pregnancyObservation1"></id>
            <meta>
               <profile value="http://fhir.ch/ig/ch-vacd/StructureDefinition/ch-vacd-section-pregnancy"></profile>
            </meta>
            <status value="final"></status>
            <code>
               <coding>
                  <system value="http://loinc.org"></system>
                  <code value="11779-6"></code>
                  <display value="DELIVERY DATE (ESTIMATED FROM LAST MENSTRUAL PERIOD)"></display>
               </coding>
            </code>
            <valueDateTime value="2020-12"></valueDateTime>
         </Observation>
      </resource>
   </entry>
</Bundle>