<Bundle xmlns="http://hl7.org/fhir">
   <id value="4-ImmunizationRecommendationRequest"></id>
   <meta>
      <lastUpdated value="2021-05-05T15:37:39.631+02:00"></lastUpdated>
      <profile value="http://fhir.ch/ig/ch-vacd/StructureDefinition/ch-vacd-document-immunization-recommendation-request"></profile>
   </meta>
   <identifier>
      <system value="urn:ietf:rfc:3986"></system>
      <value value="urn:uuid:69393325-8bac-4fa2-a61d-16979811c388"></value>
   </identifier>
   <type value="document"></type>
   <timestamp value="2021-05-05T15:37:39.631+02:00"></timestamp>
   <entry>
      <fullUrl value="http://test.fhir.ch/r4/Composition/ch-vacd-document-vaccination-record"></fullUrl>
      <resource>
         <Composition xmlns="http://hl7.org/fhir">
            <id value="ch-vacd-document-vaccination-record"></id>
            <meta>
               <profile value="http://fhir.ch/ig/ch-vacd/StructureDefinition/ch-vacd-composition-immunization-recommendation-request"></profile>
            </meta>
            <language value="en-US"></language>
            <text>
               <status value="generated"></status>
               <div xmlns="http://www.w3.org/1999/xhtml" xml:lang="en-US" lang="en-US">This is the composition vaccination record.</div>
            </text>
            <identifier>
               <system value="urn:ietf:rfc:3986"></system>
               <value value="urn:uuid:ecb3084f-1980-4f69-b77b-a4a8261546be"></value>
            </identifier>
            <status value="final"></status>
            <type>
               <coding>
                  <system value="http://snomed.info/sct"></system>
                  <code value="41000179103"></code>
                  <display value="Immunization record"></display>
               </coding>
            </type>
            <subject>
               <reference value="Patient/patient1"></reference>
            </subject>
            <date value="2021-05-05T15:37:39+02:00"></date>
            <author>
               <reference value="PractitionerRole/practitionerRole1"></reference>
            </author>
            <title value="Vaccination Record"></title>
            <custodian>
               <reference value="Organization/organization1"></reference>
            </custodian>
            <section id="administration">
               <title value="Liste der verabreichten Impfungen"></title>
               <code>
                  <coding>
                     <system value="http://loinc.org"></system>
                     <code value="11369-6"></code>
                     <display value="Hx of Immunization"></display>
                  </coding>
               </code>
               <text>
                  <status value="generated"></status>
                  <div xmlns="http://www.w3.org/1999/xhtml" xml:lang="en-US" lang="en-US">This is the section containing all immunization entries.</div>
               </text>
               <entry>
                  <reference value="Immunization/immunization1"></reference>
               </entry>
               <entry>
                  <reference value="Immunization/immunization2"></reference>
               </entry>
               <entry>
                  <reference value="Immunization/immunization3"></reference>
               </entry>
               <entry>
                  <reference value="Immunization/immunization4"></reference>
               </entry>
            </section>
            <section id="medicalproblems">
               <title value="MedicalProblems"></title>
               <code>
                  <coding>
                     <system value="http://loinc.org"></system>
                     <code value="11450-4"></code>
                     <display value="Problem list Reported"></display>
                  </coding>
               </code>
               <text>
                  <status value="generated"></status>
                  <div xmlns="http://www.w3.org/1999/xhtml" xml:lang="en-US" lang="en-US">This is the section containing the medical problem entries.</div>
               </text>
               <entry>
                  <reference value="Condition/medicalRiskCondition1"></reference>
               </entry>
               <entry>
                  <reference value="Condition/medicalRiskCondition2"></reference>
               </entry>
            </section>
            <section id="sectionIlnessesUndergondeForImmunization1">
               <title value="Undergone illnesses for immunization"></title>
               <code>
                  <coding>
                     <system value="http://loinc.org"></system>
                     <code value="11348-0"></code>
                     <display value="Hx of Past illness"></display>
                  </coding>
               </code>
               <text>
                  <status value="generated"></status>
                  <div xmlns="http://www.w3.org/1999/xhtml" xml:lang="en-US" lang="en-US">This is the section containing the undergone illnesses for immunization entries.</div>
               </text>
               <entry>
                  <reference value="Condition/pastIllnessCondition1"></reference>
               </entry>
            </section>
            <section id="allergies">
               <title value="Allergies"></title>
               <code>
                  <coding>
                     <system value="http://loinc.org"></system>
                     <code value="48765-2"></code>
                     <display value="Allergies and adverse reactions Document"></display>
                  </coding>
               </code>
               <text>
                  <status value="generated"></status>
                  <div xmlns="http://www.w3.org/1999/xhtml" xml:lang="en-US">This is the section containing the allergy entries.</div>
               </text>
               <entry>
                  <reference value="AllergyIntolerance/allergyIntolerance1"></reference>
               </entry>
               <entry>
                  <reference value="AllergyIntolerance/allergyIntolerance2"></reference>
               </entry>
            </section>
            <section id="sectionLab1">
               <title value="Lab"></title>
               <code>
                  <coding>
                     <system value="http://loinc.org"></system>
                     <code value="18727-8"></code>
                     <display value="Serology studies (set)"></display>
                  </coding>
               </code>
               <text>
                  <status value="generated"></status>
                  <div xmlns="http://www.w3.org/1999/xhtml" xml:lang="en-US" lang="en-US">This is the section containing the lab entries.</div>
               </text>
               <entry>
                  <reference value="Observation/labObservation1"></reference>
               </entry>
            </section>
            <section id="pregnancy">
               <title value="Pregnancy"></title>
               <code>
                  <coding>
                     <system value="http://loinc.org"></system>
                     <code value="10162-6"></code>
                     <display value="Pregnancies Hx"></display>
                  </coding>
               </code>
               <text>
                  <status value="generated"></status>
                  <div xmlns="http://www.w3.org/1999/xhtml" xml:lang="en-US" lang="en-US">This is the section containing the pregnancy status entry.</div>
               </text>
               <entry>
                  <reference value="Condition/pregnancyCondition1"></reference>
               </entry>
            </section>
         </Composition>
      </resource>
   </entry>
   <entry>
      <fullUrl value="http://test.fhir.ch/r4/Patient/patient1"></fullUrl>
      <resource>
         <Patient xmlns="http://hl7.org/fhir">
            <id value="patient1"></id>
            <meta>
               <profile value="http://fhir.ch/ig/ch-vacd/StructureDefinition/ch-vacd-recommendation-patient"></profile>
            </meta>
            <text>
               <status value="generated"></status>
               <div xmlns="http://www.w3.org/1999/xhtml">
                  <table class="hapiPropertyTable">
                     <tbody>
                        <tr>
                           <td>Identifier</td>
                           <td>52388093-440b-478f-adaa-6be134ff7602</td>
                        </tr>
                        <tr>
                           <td>Address</td>
                           <td></td>
                        </tr>
                        <tr>
                           <td>Date of birth</td>
                           <td>
                              <span>10 March 1967</span>
                           </td>
                        </tr>
                     </tbody>
                  </table>
               </div>
            </text>
            <identifier>
               <system value="urn:oid:2.16.756.5.30.1.147.1.1"></system>
               <value value="52388093-440b-478f-adaa-6be134ff7602"></value>
            </identifier>
            <gender value="female"></gender>
            <birthDate value="1967-03-10"></birthDate>
            <address>
               <postalCode value="9876"></postalCode>
            </address>
         </Patient>
      </resource>
   </entry>
   <entry>
      <fullUrl value="http://test.fhir.ch/r4/Practitioner/practitioner1"></fullUrl>
      <resource>
         <Practitioner xmlns="http://hl7.org/fhir">
            <id value="practitioner1"></id>
            <meta>
               <profile value="http://fhir.ch/ig/ch-vacd/StructureDefinition/ch-vacd-recommendation-practitioner"></profile>
            </meta>
            <identifier>
               <system value="urn:oid:2.51.1.3"></system>
               <value value="0000000000000"></value>
            </identifier>
            <active value="true"></active>
         </Practitioner>
      </resource>
   </entry>
   <entry>
      <fullUrl value="http://test.fhir.ch/r4/Organization/organization1"></fullUrl>
      <resource>
         <Organization xmlns="http://hl7.org/fhir">
            <id value="organization1"></id>
            <meta>
               <profile value="http://fhir.ch/ig/ch-core/StructureDefinition/ch-core-organization"></profile>
            </meta>
            <identifier>
               <system value="urn:oid:2.51.1.3"></system>
               <value value="0000000000000"></value>
            </identifier>
            <name value="CDSS Requesting Org"></name>
         </Organization>
      </resource>
   </entry>
   <entry>
      <fullUrl value="http://test.fhir.ch/r4/PractitionerRole/practitionerRole1"></fullUrl>
      <resource>
         <PractitionerRole xmlns="http://hl7.org/fhir">
            <id value="practitionerRole1"></id>
            <active value="true"></active>
            <practitioner>
               <reference value="Practitioner/practitioner1"></reference>
            </practitioner>
            <organization>
               <reference value="Organization/organization1"></reference>
            </organization>
         </PractitionerRole>
      </resource>
   </entry>
   <entry>
      <fullUrl value="http://test.fhir.ch/r4/Practitioner/practitionerRole4"></fullUrl>
      <resource>
         <PractitionerRole xmlns="http://hl7.org/fhir">
            <id value="practitionerRole4"></id>
            <meta>
               <profile value="http://fhir.ch/ig/ch-vacd/StructureDefinition/ch-vacd-recommendation-practitioner"></profile>
            </meta>
            <active value="true"></active>
            <practitioner>
               <reference value="Practitioner/practitioner4"></reference>
            </practitioner>
            <organization>
               <reference value="Organization/organization4"></reference>
            </organization>
         </PractitionerRole>
      </resource>
   </entry>
   <entry>
      <fullUrl value="http://test.fhir.ch/r4/Practitioner/practitionerRole4"></fullUrl>
      <resource>
         <PractitionerRole xmlns="http://hl7.org/fhir">
            <id value="practitionerRole4"></id>
            <meta>
               <profile value="http://fhir.ch/ig/ch-vacd/StructureDefinition/ch-vacd-recommendation-practitioner"></profile>
            </meta>
            <active value="true"></active>
            <practitioner>
               <reference value="Practitioner/practitioner4"></reference>
            </practitioner>
            <organization>
               <reference value="Organization/organization4"></reference>
            </organization>
         </PractitionerRole>
      </resource>
   </entry>
   <entry>
      <fullUrl value="http://test.fhir.ch/r4/Practitioner/practitionerRole4"></fullUrl>
      <resource>
         <PractitionerRole xmlns="http://hl7.org/fhir">
            <id value="practitionerRole4"></id>
            <meta>
               <profile value="http://fhir.ch/ig/ch-vacd/StructureDefinition/ch-vacd-recommendation-practitioner"></profile>
            </meta>
            <active value="true"></active>
            <practitioner>
               <reference value="Practitioner/practitioner4"></reference>
            </practitioner>
            <organization>
               <reference value="Organization/organization4"></reference>
            </organization>
         </PractitionerRole>
      </resource>
   </entry>
   <entry>
      <fullUrl value="http://test.fhir.ch/r4/Practitioner/practitionerRole5"></fullUrl>
      <resource>
         <PractitionerRole xmlns="http://hl7.org/fhir">
            <id value="practitionerRole5"></id>
            <meta>
               <profile value="http://fhir.ch/ig/ch-vacd/StructureDefinition/ch-vacd-recommendation-practitioner"></profile>
            </meta>
            <active value="true"></active>
            <practitioner>
               <reference value="Practitioner/practitioner5"></reference>
            </practitioner>
            <organization>
               <reference value="Organization/organization5"></reference>
            </organization>
         </PractitionerRole>
      </resource>
   </entry>
   <entry>
      <fullUrl value="http://test.fhir.ch/r4/Immunization/immunization1"></fullUrl>
      <resource>
         <Immunization xmlns="http://hl7.org/fhir">
            <id value="immunization1"></id>
            <meta>
               <profile value="http://fhir.ch/ig/ch-vacd/StructureDefinition/ch-vacd-recommendation-immunization"></profile>
            </meta>
            <identifier>
               <system value="urn:oid:2.16.756.5.30.1.147.1.3.1"></system>
               <value value="12345"></value>
            </identifier>
            <status value="completed"></status>
            <vaccineCode>
               <coding>
                  <system value="http://swissmedic.ch/ns/authorizationnumber/vs"></system>
                  <code value="637"></code>
                  <display value="Boostrix"></display>
               </coding>
            </vaccineCode>
            <patient>
               <reference value="Patient/patient1"></reference>
            </patient>
            <occurrenceDateTime value="2013-09-15T15:37:39+02:00"></occurrenceDateTime>
            <recorded value="2013-09-15T15:37:39+02:00"></recorded>
            <lotNumber value="12345"></lotNumber>
            <performer>
               <actor>
                  <reference value="PractitionerRole/practitionerRole4"></reference>
               </actor>
            </performer>
            <reasonCode>
               <coding>
                  <system value="http://terminology.hl7.org/CodeSystem/v3-ActCode"></system>
                  <code value="IMMUNIZ"></code>
                  <display value="Immunization"></display>
               </coding>
            </reasonCode>
            <protocolApplied>
               <targetDisease>
                  <coding>
                     <system value="http://snomed.info/sct"></system>
                     <code value="76668005"></code>
                     <display value="Diphtheria immunization"></display>
                  </coding>
               </targetDisease>
               <targetDisease>
                  <coding>
                     <system value="http://snomed.info/sct"></system>
                     <code value="127786006"></code>
                     <display value="Tetanus vaccination"></display>
                  </coding>
               </targetDisease>
               <targetDisease>
                  <coding>
                     <system value="http://snomed.info/sct"></system>
                     <code value="39343008"></code>
                     <display value="Pertussis vaccination"></display>
                  </coding>
               </targetDisease>
               <doseNumberPositiveInt value="1"></doseNumberPositiveInt>
            </protocolApplied>
         </Immunization>
      </resource>
   </entry>
   <entry>
      <fullUrl value="http://test.fhir.ch/r4/Immunization/immunization2"></fullUrl>
      <resource>
         <Immunization xmlns="http://hl7.org/fhir">
            <id value="immunization2"></id>
            <meta>
               <profile value="http://fhir.ch/ig/ch-vacd/StructureDefinition/ch-vacd-recommendation-immunization"></profile>
            </meta>
            <identifier>
               <system value="urn:oid:2.16.756.5.30.1.147.1.3.1"></system>
               <value value="23456"></value>
            </identifier>
            <status value="completed"></status>
            <vaccineCode>
               <coding>
                  <system value="http://swissmedic.ch/ns/authorizationnumber/vs"></system>
                  <code value="637"></code>
                  <display value="Boostrix"></display>
               </coding>
            </vaccineCode>
            <patient>
               <reference value="Patient/patient1"></reference>
            </patient>
            <occurrenceDateTime value="2014-08-12T15:37:39+02:00"></occurrenceDateTime>
            <recorded value="2014-08-12T15:37:39+02:00"></recorded>
            <lotNumber value="12345"></lotNumber>
            <performer>
               <actor>
                  <reference value="PractitionerRole/practitionerRole4"></reference>
               </actor>
            </performer>
            <reasonCode>
               <coding>
                  <system value="http://terminology.hl7.org/CodeSystem/v3-ActCode"></system>
                  <code value="IMMUNIZ"></code>
                  <display value="Immunization"></display>
               </coding>
            </reasonCode>
            <protocolApplied>
               <targetDisease>
                  <coding>
                     <system value="http://snomed.info/sct"></system>
                     <code value="76668005"></code>
                     <display value="Diphtheria immunization"></display>
                  </coding>
               </targetDisease>
               <targetDisease>
                  <coding>
                     <system value="http://snomed.info/sct"></system>
                     <code value="127786006"></code>
                     <display value="Tetanus vaccination"></display>
                  </coding>
               </targetDisease>
               <targetDisease>
                  <coding>
                     <system value="http://snomed.info/sct"></system>
                     <code value="39343008"></code>
                     <display value="Pertussis vaccination"></display>
                  </coding>
               </targetDisease>
               <doseNumberPositiveInt value="1"></doseNumberPositiveInt>
            </protocolApplied>
         </Immunization>
      </resource>
   </entry>
   <entry>
      <fullUrl value="http://test.fhir.ch/r4/Immunization/immunization3"></fullUrl>
      <resource>
         <Immunization xmlns="http://hl7.org/fhir">
            <id value="immunization3"></id>
            <meta>
               <profile value="http://fhir.ch/ig/ch-vacd/StructureDefinition/ch-vacd-recommendation-immunization"></profile>
            </meta>
            <identifier>
               <system value="urn:oid:2.16.756.5.30.1.147.1.3.1"></system>
               <value value="34567"></value>
            </identifier>
            <status value="completed"></status>
            <vaccineCode>
               <coding>
                  <system value="http://swissmedic.ch/ns/authorizationnumber/vs"></system>
                  <code value="637"></code>
                  <display value="Boostrix"></display>
               </coding>
            </vaccineCode>
            <patient>
               <reference value="Patient/patient1"></reference>
            </patient>
            <occurrenceDateTime value="2015-11-01T15:37:39+01:00"></occurrenceDateTime>
            <recorded value="2015-11-01T15:37:39+01:00"></recorded>
            <lotNumber value="12345"></lotNumber>
            <performer>
               <actor>
                  <reference value="PractitionerRole/practitionerRole4"></reference>
               </actor>
            </performer>
            <reasonCode>
               <coding>
                  <system value="http://terminology.hl7.org/CodeSystem/v3-ActCode"></system>
                  <code value="IMMUNIZ"></code>
                  <display value="Immunization"></display>
               </coding>
            </reasonCode>
            <protocolApplied>
               <targetDisease>
                  <coding>
                     <system value="http://snomed.info/sct"></system>
                     <code value="76668005"></code>
                     <display value="Diphtheria immunization"></display>
                  </coding>
               </targetDisease>
               <targetDisease>
                  <coding>
                     <system value="http://snomed.info/sct"></system>
                     <code value="127786006"></code>
                     <display value="Tetanus vaccination"></display>
                  </coding>
               </targetDisease>
               <targetDisease>
                  <coding>
                     <system value="http://snomed.info/sct"></system>
                     <code value="39343008"></code>
                     <display value="Pertussis vaccination"></display>
                  </coding>
               </targetDisease>
               <doseNumberPositiveInt value="1"></doseNumberPositiveInt>
            </protocolApplied>
         </Immunization>
      </resource>
   </entry>
   <entry>
      <fullUrl value="http://test.fhir.ch/r4/Immunization/immunization4"></fullUrl>
      <resource>
         <Immunization xmlns="http://hl7.org/fhir">
            <id value="immunization4"></id>
            <meta>
               <profile value="http://fhir.ch/ig/ch-vacd/StructureDefinition/ch-vacd-recommendation-immunization"></profile>
            </meta>
            <identifier>
               <system value="urn:oid:2.16.756.5.30.1.147.1.3.1"></system>
               <value value="45678"></value>
            </identifier>
            <status value="completed"></status>
            <vaccineCode>
               <coding>
                  <system value="http://swissmedic.ch/ns/authorizationnumber/vs"></system>
                  <code value="268"></code>
                  <display value="MMR-II"></display>
               </coding>
            </vaccineCode>
            <patient>
               <reference value="Patient/patient1"></reference>
            </patient>
            <occurrenceDateTime value="2016-03-05T15:37:39+01:00"></occurrenceDateTime>
            <recorded value="2016-03-05T15:37:39+01:00"></recorded>
            <lotNumber value="12345"></lotNumber>
            <performer>
               <actor>
                  <reference value="PractitionerRole/practitionerRole5"></reference>
               </actor>
            </performer>
            <reasonCode>
               <coding>
                  <system value="http://terminology.hl7.org/CodeSystem/v3-ActCode"></system>
                  <code value="IMMUNIZ"></code>
                  <display value="Immunization"></display>
               </coding>
            </reasonCode>
            <protocolApplied>
               <targetDisease>
                  <coding>
                     <system value="http://snomed.info/sct"></system>
                     <code value="47435007"></code>
                     <display value="Measles vaccination"></display>
                  </coding>
               </targetDisease>
               <targetDisease>
                  <coding>
                     <system value="http://snomed.info/sct"></system>
                     <code value="50583002"></code>
                     <display value="Mumps vaccination"></display>
                  </coding>
               </targetDisease>
               <targetDisease>
                  <coding>
                     <system value="http://snomed.info/sct"></system>
                     <code value="82314000"></code>
                     <display value="Rubella vaccination"></display>
                  </coding>
               </targetDisease>
               <doseNumberPositiveInt value="1"></doseNumberPositiveInt>
            </protocolApplied>
         </Immunization>
      </resource>
   </entry>
   <entry>
      <fullUrl value="http://test.fhir.ch/r4/Condition/medicalRiskCondition1"></fullUrl>
      <resource>
         <Condition xmlns="http://hl7.org/fhir">
            <id value="medicalRiskCondition1"></id>
            <meta>
               <profile value="http://fhir.ch/ig/ch-vacd/StructureDefinition/ch-vacd-recommendation-medical-problems"></profile>
            </meta>
            <code>
               <coding>
                  <system value="urn:oid:2.16.756.5.30.1.127.3.3.1"></system>
                  <code value="114036"></code>
                  <display value="ANDERE_LEBERERKRANKUNG"></display>
               </coding>
            </code>
            <subject>
               <reference value="Patient/patient1"></reference>
            </subject>
            <recorder>
               <reference value="PractitionerRole/practitionerRole1"></reference>
            </recorder>
         </Condition>
      </resource>
   </entry>
   <entry>
      <fullUrl value="http://test.fhir.ch/r4/Condition/medicalRiskCondition2"></fullUrl>
      <resource>
         <Condition xmlns="http://hl7.org/fhir">
            <id value="medicalRiskCondition2"></id>
            <meta>
               <profile value="http://fhir.ch/ig/ch-vacd/StructureDefinition/ch-vacd-recommendation-medical-problems"></profile>
            </meta>
            <code>
               <coding>
                  <system value="urn:oid:2.16.756.5.30.1.127.3.3.2"></system>
                  <code value="213006"></code>
                  <display value="FLEDERMAUSFORSCHER_UND_SCHUETZER"></display>
               </coding>
            </code>
            <subject>
               <reference value="Patient/patient1"></reference>
            </subject>
            <recorder>
               <reference value="PractitionerRole/practitionerRole1"></reference>
            </recorder>
         </Condition>
      </resource>
   </entry>
   <entry>
      <fullUrl value="http://test.fhir.ch/r4/Observation/pastIllnessCondition1"></fullUrl>
      <resource>
         <Condition xmlns="http://hl7.org/fhir">
            <id value="pastIllnessCondition1"></id>
            <meta>
               <profile value="http://fhir.ch/ig/ch-vacd/StructureDefinition/ch-vacd-recommendation-pastillnesses"></profile>
            </meta>
            <code>
               <coding>
                  <system value="http://snomed.info/sct"></system>
                  <code value="14189004"></code>
                  <display value="Measles (disorder)"></display>
               </coding>
            </code>
            <subject>
               <reference value="Patient/patient1"></reference>
            </subject>
            <recordedDate value="1966-12-05T15:37:39+01:00"></recordedDate>
            <recorder>
               <reference value="PractitionerRole/practitionerRole1"></reference>
            </recorder>
         </Condition>
      </resource>
   </entry>
   <entry>
      <fullUrl value="http://test.fhir.ch/r4/AllergyIntolerance/allergyIntolerance1"></fullUrl>
      <resource>
         <AllergyIntolerance xmlns="http://hl7.org/fhir">
            <id value="allergyIntolerance1"></id>
            <meta>
               <profile value="http://fhir.ch/ig/ch-vacd/StructureDefinition/ch-vacd-recommendation-allergies"></profile>
            </meta>
            <code>
               <coding>
                  <system value="http://snomed.info/sct"></system>
                  <code value="303300008"></code>
                  <display value="Egg protein (substance)"></display>
               </coding>
            </code>
            <patient>
               <reference value="Patient/patient1"></reference>
            </patient>
            <recordedDate value="2004-07-11T15:37:39+02:00"></recordedDate>
            <recorder>
               <reference value="PractitionerRole/practitionerRole1"></reference>
            </recorder>
         </AllergyIntolerance>
      </resource>
   </entry>
   <entry>
      <fullUrl value="http://test.fhir.ch/r4/AllergyIntolerance/allergyIntolerance2"></fullUrl>
      <resource>
         <AllergyIntolerance xmlns="http://hl7.org/fhir">
            <id value="allergyIntolerance2"></id>
            <meta>
               <profile value="http://fhir.ch/ig/ch-vacd/StructureDefinition/ch-vacd-recommendation-allergies"></profile>
            </meta>
            <code>
               <coding>
                  <system value="http://snomed.info/sct"></system>
                  <code value="24079001"></code>
                  <display value="Atopic dermatitis (disorder)"></display>
               </coding>
            </code>
            <patient>
               <reference value="Patient/patient1"></reference>
            </patient>
            <recordedDate value="1996-07-11T15:37:39+02:00"></recordedDate>
            <recorder>
               <reference value="PractitionerRole/practitionerRole1"></reference>
            </recorder>
         </AllergyIntolerance>
      </resource>
   </entry>
   <entry>
      <fullUrl value="http://test.fhir.ch/r4/Observation/labObservation1"></fullUrl>
      <resource>
         <Observation xmlns="http://hl7.org/fhir">
            <id value="labObservation1"></id>
            <meta>
               <profile value="http://fhir.ch/ig/ch-vacd/StructureDefinition/ch-vacd-recommendation-laboratory-serology"></profile>
            </meta>
            <text>
               <status value="generated"></status>
               <div xmlns="http://www.w3.org/1999/xhtml" xml:lang="en-US">Es besteht ein Immunschutz gegen Hepatitis B.</div>
            </text>
            <status value="final"></status>
            <code>
               <coding>
                  <system value="http://loinc.org"></system>
                  <code value="16935-9"></code>
                  <display value="Hepatitis B virus surface Ab [Units/volume] in Serum"></display>
               </coding>
            </code>
            <subject>
               <reference value="Patient/patient1"></reference>
            </subject>
            <effectiveDateTime value="1971-10"></effectiveDateTime>
            <performer>
               <reference value="PractitionerRole/practitionerRole1"></reference>
            </performer>
            <valueQuantity>
               <value value="99.0"></value>
               <unit value="[iU]/L"></unit>
               <system value="http://unitsofmeasure.org"></system>
               <code value="[iU]/L"></code>
            </valueQuantity>
            <interpretation>
               <coding>
                  <system value="http://terminology.hl7.org/CodeSystem/v3-ObservationInterpretation"></system>
                  <code value="POS"></code>
                  <display value="Positive"></display>
               </coding>
            </interpretation>
         </Observation>
      </resource>
   </entry>
   <entry>
      <fullUrl value="http://test.fhir.ch/r4/Condition/pregnancyCondition1"></fullUrl>
      <resource>
         <Condition xmlns="http://hl7.org/fhir">
            <id value="pregnancyCondition1"></id>
            <meta>
               <profile value="http://fhir.ch/ig/ch-vacd/StructureDefinition/ch-vacd-recommendation-pregnancy"></profile>
            </meta>
            <code>
               <coding>
                  <system value="http://loinc.org"></system>
                  <code value="11779-6"></code>
                  <display value="Delivery date Estimated from last menstrual period"></display>
               </coding>
            </code>
            <subject>
               <reference value="Patient/patient1"></reference>
            </subject>
            <recordedDate value="2021-11-05T15:37:39+01:00"></recordedDate>
            <recorder>
               <reference value="PractitionerRole/practitionerRole1"></reference>
            </recorder>
         </Condition>
      </resource>
   </entry>
</Bundle>